onset	duration	trial_type	response_time	Endowment	Endowment_pmod	Decision	Decision_pmod
4.989723	2	cue_ug-resp_pmod	n/a	25	6	n/a	n/a
14.540212	2	cue_ug-prop_pmod	n/a	23	2	n/a	n/a
22.590048	2	cue_ug-resp_pmod	n/a	19	0	n/a	n/a
30.639780	2	cue_ug-resp_pmod	n/a	15	-4	n/a	n/a
44.189830	2	cue_ug-prop_pmod	n/a	25	4	n/a	n/a
52.240032	2	cue_ug-resp_pmod	n/a	15	-4	n/a	n/a
62.289852	2	cue_ug-resp_pmod	n/a	21	2	n/a	n/a
78.839930	2	cue_dict_pmod	n/a	15	-4	n/a	n/a
88.889470	2	cue_ug-prop_pmod	n/a	23	2	n/a	n/a
102.439674	2	cue_dict_pmod	n/a	21	3	n/a	n/a
113.989555	2	cue_ug-prop_pmod	n/a	21	0	n/a	n/a
127.039680	2	cue_ug-resp_pmod	n/a	15	-4	n/a	n/a
135.089220	2	cue_ug-resp_pmod	n/a	23	4	n/a	n/a
148.138260	2	cue_dict_pmod	n/a	25	7	n/a	n/a
156.189200	2	cue_ug-resp_pmod	n/a	17	-2	n/a	n/a
164.239350	2	cue_ug-resp_pmod	n/a	19	0	n/a	n/a
172.289440	2	cue_ug-prop_pmod	n/a	15	-6	n/a	n/a
182.339220	2	cue_ug-prop_pmod	n/a	15	-6	n/a	n/a
198.889160	2	cue_ug-prop_pmod	n/a	19	-2	n/a	n/a
208.939200	2	cue_ug-prop_pmod	n/a	19	-2	n/a	n/a
216.989400	2	cue_dict_pmod	n/a	25	7	n/a	n/a
228.039230	2	cue_ug-prop_pmod	n/a	23	2	n/a	n/a
241.589110	2	cue_dict_pmod	n/a	15	-4	n/a	n/a
253.139000	2	cue_ug-prop_pmod	n/a	21	0	n/a	n/a
261.188840	2	cue_dict_pmod	n/a	15	-4	n/a	n/a
273.238900	2	cue_ug-resp_pmod	n/a	23	4	n/a	n/a
291.289000	2	cue_ug-prop_pmod	n/a	25	4	n/a	n/a
299.339020	2	cue_dict_pmod	n/a	25	7	n/a	n/a
307.389000	2	cue_ug-prop_pmod	n/a	21	0	n/a	n/a
319.438660	2	cue_dict_pmod	n/a	15	-4	n/a	n/a
327.488680	2	cue_ug-resp_pmod	n/a	21	2	n/a	n/a
338.538700	2	cue_dict_pmod	n/a	17	-2	n/a	n/a
350.088750	2	cue_dict_pmod	n/a	15	-4	n/a	n/a
358.138550	2	cue_ug-resp_pmod	n/a	17	-2	n/a	n/a
369.188780	2	cue_dict_pmod	n/a	17	-2	n/a	n/a
380.738620	2	cue_dict_pmod	n/a	17	-2	n/a	n/a
9.022771	1.133155	dec_dg-prop_pmod_choice	1.133155	25	n/a	20	-1.897666e-01
17.072468	1.900176	dec_ug-resp_pmod_accept	1.900176	23	n/a	19	-1.084741e-01
17.072468	1.900176	dec_ug-resp_pmod_option_presented	1.900176	23	n/a	19	-1.084741e-01
17.072468	1.900176	dec_ug-resp_pmod_choice	1.900176	23	n/a	19	-1.084741e-01
25.122648	1.766407	dec_dg-prop_pmod_choice	1.766407	19	n/a	15	-1.792403e-01
34.672405	1.767008	dec_dg-prop_pmod_choice	1.767008	15	n/a	12	-1.897666e-01
46.722458	1.083454	dec_ug-resp_pmod_reject	1.083454	25	n/a	0	-2.023871e-01
46.722458	1.083454	dec_ug-resp_pmod_option_presented	1.083454	25	n/a	0	-2.023871e-01
46.722458	1.083454	dec_ug-resp_pmod_choice	1.083454	25	n/a	0	-2.823871e-01
54.772396	1.533551	dec_dg-prop_pmod_choice	1.533551	15	n/a	8	7.690009e-02
66.322464	2.083472	dec_dg-prop_pmod_choice	2.083472	21	n/a	12	3.880486e-02
81.372270	1.466752	dec_ug-prop_pmod_choice	1.466752	15	n/a	10	5.647644e-02
92.922264	1.083684	dec_ug-resp_pmod_reject	1.083684	23	n/a	0	-2.389089e-01
92.922264	1.083684	dec_ug-resp_pmod_option_presented	1.083684	23	n/a	0	-2.389089e-01
92.922264	1.083684	dec_ug-resp_pmod_choice	1.083684	23	n/a	0	-2.823871e-01
106.472310	1.733244	dec_ug-prop_pmod_choice	1.733244	21	n/a	12	1.517145e-01
119.522030	1.250303	dec_ug-resp_pmod_accept	1.250303	21	n/a	14	5.094621e-02
119.522030	1.250303	dec_ug-resp_pmod_option_presented	1.250303	21	n/a	14	5.094621e-02
119.522030	1.250303	dec_ug-resp_pmod_choice	1.250303	21	n/a	14	5.094621e-02
129.572050	1.933374	dec_dg-prop_pmod_choice	1.933374	15	n/a	8	7.690009e-02
140.622060	1.650284	dec_dg-prop_pmod_choice	1.650284	23	n/a	16	-8.541875e-02
150.671880	1.199286	dec_ug-prop_pmod_choice	1.199286	25	n/a	17	4.314311e-02
158.721980	1.199827	dec_dg-prop_pmod_choice	1.199827	17	n/a	14	-2.132960e-01
166.772000	1.350141	dec_dg-prop_pmod_choice	1.350141	19	n/a	15	-1.792403e-01
174.822040	1.200049	dec_ug-resp_pmod_accept	1.200049	15	n/a	8	1.842795e-01
174.822040	1.200049	dec_ug-resp_pmod_option_presented	1.200049	15	n/a	8	1.842795e-01
174.822040	1.200049	dec_ug-resp_pmod_choice	1.200049	15	n/a	8	1.842795e-01
186.371800	1.817008	dec_ug-resp_pmod_accept	1.817008	15	n/a	8	1.842795e-01
186.371800	1.817008	dec_ug-resp_pmod_option_presented	1.817008	15	n/a	8	1.842795e-01
186.371800	1.817008	dec_ug-resp_pmod_choice	1.817008	15	n/a	8	1.842795e-01
201.421810	1.183562	dec_ug-resp_pmod_accept	1.183562	19	n/a	13	3.340235e-02
201.421810	1.183562	dec_ug-resp_pmod_option_presented	1.183562	19	n/a	13	3.340235e-02
201.421810	1.183562	dec_ug-resp_pmod_choice	1.183562	19	n/a	13	3.340235e-02
211.471770	1.750168	dec_ug-resp_pmod_accept	1.750168	19	n/a	10	1.912971e-01
211.471770	1.750168	dec_ug-resp_pmod_option_presented	1.750168	19	n/a	10	1.912971e-01
211.471770	1.750168	dec_ug-resp_pmod_choice	1.750168	19	n/a	10	1.912971e-01
222.521760	1.116378	dec_ug-prop_pmod_choice	1.116378	25	n/a	14	1.631431e-01
232.071730	1.183075	dec_ug-resp_pmod_accept	1.183075	23	n/a	13	1.523955e-01
232.071730	1.183075	dec_ug-resp_pmod_option_presented	1.183075	23	n/a	13	1.523955e-01
232.071730	1.183075	dec_ug-resp_pmod_choice	1.183075	23	n/a	13	1.523955e-01
245.621670	1.350058	dec_ug-prop_pmod_choice	1.350058	15	n/a	12	-7.685689e-02
255.671650	1.550123	dec_ug-resp_pmod_accept	1.550123	21	n/a	14	5.094621e-02
255.671650	1.550123	dec_ug-resp_pmod_option_presented	1.550123	21	n/a	14	5.094621e-02
255.671650	1.550123	dec_ug-resp_pmod_choice	1.550123	21	n/a	14	5.094621e-02
263.721650	1.383391	dec_ug-prop_pmod_choice	1.383391	15	n/a	8	1.898098e-01
278.771550	1.499864	dec_dg-prop_pmod_choice	1.499864	23	n/a	19	-2.158535e-01
293.821560	2.516711	dec_ug-resp_pmod_accept	2.516711	25	n/a	20	-8.238713e-02
293.821560	2.516711	dec_ug-resp_pmod_option_presented	2.516711	25	n/a	20	-8.238713e-02
293.821560	2.516711	dec_ug-resp_pmod_choice	2.516711	25	n/a	20	-8.238713e-02
301.871340	1.267002	dec_ug-prop_pmod_choice	1.267002	25	n/a	17	4.314311e-02
309.922000	1.799542	dec_ug-resp_pmod_accept	1.799542	21	n/a	17	-9.191094e-02
309.922000	1.799542	dec_ug-resp_pmod_option_presented	1.799542	21	n/a	17	-9.191094e-02
309.922000	1.799542	dec_ug-resp_pmod_choice	1.799542	21	n/a	17	-9.191094e-02
321.971100	1.117155	dec_ug-prop_pmod_choice	1.117155	15	n/a	8	1.898098e-01
333.021420	2.583491	dec_dg-prop_pmod_choice	2.583491	21	n/a	17	-1.992904e-01
342.571260	1.433644	dec_ug-prop_pmod_choice	1.433644	17	n/a	9	1.937313e-01
352.621340	0.916465	dec_ug-prop_pmod_choice	0.916465	15	n/a	8	1.898098e-01
363.671170	1.600202	dec_dg-prop_pmod_choice	1.600202	17	n/a	12	-9.564893e-02
373.221200	1.000237	dec_ug-prop_pmod_choice	1.000237	17	n/a	12	1.726076e-02
383.270970	1.483769	dec_ug-prop_pmod_choice	1.483769	17	n/a	9	1.937313e-01
